File: course/data/exercises/X-ray_Diffraction/XRD_theory.dat
1.0000 5.5753e-86
1.1100 4.19095e-56
1.2200 8.6242e-33
1.3300 4.86134e-16
1.4400 7.50915e-06
1.5500 0.0317888
1.6600 3.68751e-05
1.7700 1.1716e-14
1.8800 4.23046e-30
1.9900 2.05662e-14
2.1000 3.63374e-05
2.2100 0.0177005
2.3200 2.37521e-06
2.4300 8.78912e-17
2.5400 4.77549e-07
2.6500 0.411519
2.7600 0.0999286
2.8700 6.82493e-09
2.9800 0.0121251
3.0900 441.561
3.2000 4.59431
3.3100 1.44355e-07
3.4200 0.795982
3.5300 1.40866
3.6400 7.22108e-07
3.7500 0.00683704
3.8600 0.0161489
3.9700 1.10897e-08
4.0800 2.19304e-21
4.1900 1.16445e-10
4.3000 0.208184
4.4100 112.61
4.5200 0.0183755
4.6300 0.164989
4.7400 0.0182813
4.8500 0.00155761
4.9600 0.0172721
5.0700 0.0275444
5.1800 3.78861
5.2900 0.000163537
5.4000 3.10893e-13
5.5100 0.000532998
5.6200 0.301741
5.7300 0.00018958
5.8400 0.0329242
5.9500 2.43432e-06
6.0600 2.97478e-06
6.1700 9.56247
6.2800 10.4014
6.3900 2.0988
6.5000 0.0516311
6.6100 0.0200046
6.7200 0.622686
6.8300 2.3467
6.9400 26.0512
7.0500 0.276448
7.1600 0.0476153
7.2700 0.0435088
7.3800 0.00241291
7.4900 1.56541e-06
7.6000 0.0908035
7.7100 0.00625139
7.8200 0.0631131
7.9300 0.00222956
8.0400 1.40451
8.1500 0.719618
8.2600 1.38504e-07
8.3700 8.03939e-09
8.4800 0.01023
8.5900 0.00560852
8.7000 0.0028994
8.8100 3.70954
8.9200 0.00254146
9.0300 0.00972948
9.1400 0.561072
9.2500 6.20819
9.3600 3.47266
9.4700 0.0933202
9.5800 0.410049
9.6900 0.00512291
9.8000 0.00205398
9.9100 0.00139044
10.0200 0.0024216
10.1300 0.204443
10.2400 8.27262
10.3500 2.3662
10.4600 0.00149263
10.5700 3.30977e-07
10.6800 2.5235e-05
10.7900 0.0626203
10.9000 0.00133027
11.0100 0.769298
11.1200 7.26374
11.2300 0.0141186
11.3400 0.000441568
11.4500 0.693368
11.5600 0.000746315
11.6700 0.0602778
11.7800 5.52307e-05
11.8900 0.387786
12.0000 11.0946
12.1100 0.000233991
12.2200 0.0296931
12.3300 0.0292165
12.4400 1.44765e-08
12.5500 0.000466468
12.6600 1.00875
12.7700 4.42823
12.8800 0.00330638
12.9900 0.0606619
13.1000 0.0681758
13.2100 0.300395
13.3200 0.00449611
13.4300 0.762664
13.5400 5.24194
13.6500 0.000122011
13.7600 0.506603
13.8700 0.0024964
13.9800 6.84008e-12
14.0900 0.0029361
14.2000 10.1648
14.3100 0.0275765
14.4200 0.160495
14.5300 0.0505011
14.6400 3.36623e-07
14.7500 0.191369
14.8600 0.127255
14.9700 0.000273284
15.0800 0.0104548
15.1900 0.00727404
15.3000 2.18232e-08
15.4100 0.00686683
15.5200 6.46617
15.6300 1.27371
15.7400 0.0845822
15.8500 0.277449
15.9600 1.17686
16.0700 0.0646356
16.1800 1.22143
16.2900 0.14491
16.4000 0.187048
16.5100 8.84036e-05
16.6200 0.0138372
16.7300 2.06078
16.8400 0.00922183
16.9500 6.80813e-09
17.0600 2.73063e-10
17.1700 0.00444305
17.2800 0.311147
17.3900 0.0323982
17.5000 5.26139e-05
17.6100 0.0688201
17.7200 0.121052
17.8300 0.431617
17.9400 0.169308
18.0500 0.000139328
18.1600 0.000405093
18.2700 0.00089224
18.3800 0.000157693
18.4900 7.47141e-05
18.6000 0.00133842
18.7100 1.0305
18.8200 2.06548
18.9300 0.166867
19.0400 5.19202
19.1500 0.12197
19.2600 3.81951
19.3700 0.312607
19.4800 0.00114163
19.5900 0.512452
19.7000 0.0386251
19.8100 0.473694
19.9200 0.00599066
20.0300 0.608336
20.1400 0.00728987
20.2500 0.000147226
20.3600 1.3374e-05
20.4700 4.20292e-13
20.5800 3.60492e-27
20.6900 1.13199e-33
20.8000 4.86741e-17
20.9100 8.84908e-07
21.0200 0.0163736
21.1300 0.000649581
21.2400 2.51454e-11
21.3500 3.83345e-25
21.4600 1.82258e-45
21.5700 9.03751e-30
21.6800 5.47629e-14
21.7900 0.000140205
21.9000 0.342532
22.0100 0.0790791
22.1200 0.827892
22.2300 0.16073
22.3400 0.0799386
22.4500 0.00139907
22.5600 2.99973e-11
22.6700 3.14235e-25
22.7800 1.251e-45
22.8900 1.61335e-40
23.0000 9.77923e-22
23.1100 1.9339e-09
23.2200 0.00237292
23.3300 0.00940613
23.4400 0.00184106
23.5500 0.00256665
23.6600 6.43126e-09
23.7700 8.34736e-21
23.8800 3.48722e-39
23.9900 2.13937e-61
24.1000 8.84925e-37
24.2100 1.18039e-18
24.3200 6.11466e-07
24.4300 0.204644
24.5400 0.424263
24.6500 0.00417129
24.7600 0.000523467
24.8700 1.63495e-10
24.9800 2.55346e-23
25.0900 1.39068e-42
25.2000 3.2325e-28
25.3100 3.2551e-13
25.4200 0.000131958
25.5300 0.0884921
25.6400 0.000436392
25.7500 0.000871979
25.8600 4.94365e-07
25.9700 0.00473332
26.0800 0.0015675
26.1900 1.08489e-09
26.3000 2.7349e-16
26.4100 1.66282e-06
26.5200 0.00825454
26.6300 0.456152
26.7400 0.0484254
26.8500 0.00273887
26.9600 0.000219847
27.0700 4.29796e-05
27.1800 0.000431853
27.2900 5.68223e-09
27.4000 3.48351e-20
27.5100 8.80244e-10
27.6200 0.000128221
27.7300 0.00120241
27.8400 0.00309054
27.9500 0.000361168
28.0600 1.90012e-05
28.1700 9.07754e-13
28.2800 1.62706e-26
28.3900 8.80844e-47
28.5000 4.40456e-58
28.6100 6.03984e-35
28.7200 2.23688e-18
28.8300 2.33919e-08
28.9400 0.000434969
29.0500 0.000297973
29.1600 1.1324e-09
29.2700 2.58976e-09
29.3800 3.72092e-05
29.4900 5.34887e-06
29.6000 4.5821e-12
29.7100 1.08643e-24
29.8200 6.95424e-44
29.9300 1.20169e-69
30.0400 5.60572e-102
30.1500 7.05937e-141
30.2600 2.39992e-186
30.3700 2.20254e-238
30.4800 5.45689e-297
30.5900 0
30.7000 0
30.8100 0
30.9200 0
31.0300 0
31.1400 0
31.2500 0
31.3600 0
31.4700 0
31.5800 0
31.6900 0
31.8000 0
31.9100 0
32.0200 0
32.1300 0
32.2400 0
32.3500 0
32.4600 0
32.5700 0
32.6800 0
32.7900 0
32.9000 0
33.0100 0
33.1200 0
33.2300 0
33.3400 0
33.4500 0
33.5600 0
33.6700 0
33.7800 0
33.8900 0
34.0000 0
34.1100 0
34.2200 0
34.3300 0
34.4400 0
34.5500 0
34.6600 0
34.7700 0
34.8800 0
34.9900 0
35.1000 0
35.2100 0
35.3200 0
35.4300 0
35.5400 0
35.6500 0
35.7600 0
35.8700 0
35.9800 0
36.0900 0
36.2000 0
36.3100 0
36.4200 0
36.5300 0
36.6400 0
36.7500 0
36.8600 0
36.9700 0
37.0800 0
37.1900 0
37.3000 0
37.4100 0
37.5200 0
37.6300 0
37.7400 0
37.8500 0
37.9600 0
38.0700 0
38.1800 0
38.2900 0
38.4000 0
38.5100 0
38.6200 0
38.7300 0
38.8400 0
38.9500 0
39.0600 0
39.1700 0
39.2800 0
39.3900 0
39.5000 0
39.6100 0
39.7200 0
39.8300 0
39.9400 0
40.0500 0
40.1600 0
40.2700 0
40.3800 0
40.4900 0
40.6000 0
40.7100 0
40.8200 0
40.9300 0
41.0400 0
41.1500 0
41.2600 0
41.3700 0
41.4800 0
41.5900 0
41.7000 0
41.8100 0
41.9200 0
42.0300 0
42.1400 0
42.2500 0
42.3600 0
42.4700 0
42.5800 0
42.6900 0
42.8000 0
42.9100 0
43.0200 0
43.1300 0
43.2400 0
43.3500 0
43.4600 0
43.5700 0
43.6800 0
43.7900 0
43.9000 0
44.0100 0
44.1200 0
44.2300 0
44.3400 0
44.4500 0
44.5600 0
44.6700 0
44.7800 0
44.8900 0
45.0000 0
45.1100 0
45.2200 0
45.3300 0
45.4400 0
45.5500 0
45.6600 0
45.7700 0
45.8800 0
45.9900 0
46.1000 0
46.2100 0
46.3200 0
46.4300 0
46.5400 0
46.6500 0
46.7600 0
46.8700 0
46.9800 0
47.0900 0
47.2000 0
47.3100 0
47.4200 0
47.5300 0
47.6400 0
47.7500 0
47.8600 0
47.9700 0
48.0800 0
48.1900 0
48.3000 0
48.4100 0
48.5200 0
48.6300 0
48.7400 0
48.8500 0
48.9600 0
49.0700 0
49.1800 0
49.2900 0
49.4000 0
49.5100 0
49.6200 0
49.7300 0
49.8400 0
49.9500 0
50.0600 0
50.1700 0
50.2800 0
50.3900 0
50.5000 0
50.6100 0
50.7200 0
50.8300 0
50.9400 0
51.0500 0
51.1600 0
51.2700 0
51.3800 0
51.4900 0
51.6000 0
51.7100 0
51.8200 0
51.9300 0
52.0400 0
52.1500 0
52.2600 0
52.3700 0
52.4800 0
52.5900 0
52.7000 0
52.8100 0
52.9200 0
53.0300 0
53.1400 0
53.2500 0
53.3600 0
53.4700 0
53.5800 0
53.6900 0
53.8000 0
53.9100 0
54.0200 0
54.1300 0
54.2400 0
54.3500 0
54.4600 0
54.5700 0
54.6800 0
54.7900 0
54.9000 0
55.0100 0
55.1200 0
55.2300 0
55.3400 0
55.4500 0
55.5600 0
55.6700 0
55.7800 0
55.8900 0
56.0000 0
56.1100 0
56.2200 0
56.3300 0
56.4400 0
56.5500 0
56.6600 0
56.7700 0
56.8800 0
56.9900 0
57.1000 0
57.2100 0
57.3200 0
57.4300 0
57.5400 0
57.6500 0
57.7600 0
57.8700 0
57.9800 0
58.0900 0
58.2000 0
58.3100 0
58.4200 0
58.5300 0
58.6400 0
58.7500 0
58.8600 0
58.9700 0
59.0800 0
59.1900 0
59.3000 0
59.4100 0
59.5200 0
59.6300 0
59.7400 0
59.8500 0
59.9600 0
60.0700 0
60.1800 0
60.2900 0
60.4000 0
60.5100 0
60.6200 0
60.7300 0
60.8400 0
60.9500 0
61.0600 0
61.1700 0
61.2800 0
61.3900 0
61.5000 0
61.6100 0
61.7200 0
61.8300 0
61.9400 0
62.0500 0
62.1600 0
62.2700 0
62.3800 0
62.4900 0
62.6000 0
62.7100 0
62.8200 0
62.9300 0
63.0400 0
63.1500 0
63.2600 0
63.3700 0
63.4800 0
63.5900 0
63.7000 0
63.8100 0
63.9200 0
64.0300 0
64.1400 0
64.2500 0
64.3600 0
64.4700 0
64.5800 0
64.6900 0
64.8000 0
64.9100 0
65.0200 0
65.1300 0
65.2400 0
65.3500 0
65.4600 0
65.5700 0
65.6800 0
65.7900 0
65.9000 0
66.0100 0
66.1200 0
66.2300 0
66.3400 0
66.4500 0
66.5600 0
66.6700 0
66.7800 0
66.8900 0
67.0000 0
67.1100 0
67.2200 0
67.3300 0
67.4400 0
67.5500 0
67.6600 0
67.7700 0
67.8800 0
67.9900 0
68.1000 0
68.2100 0
68.3200 0
68.4300 0
68.5400 0
68.6500 0
68.7600 0
68.8700 0
68.9800 0
69.0900 0
69.2000 0
69.3100 0
69.4200 0
69.5300 0
69.6400 0
69.7500 0
69.8600 0
69.9700 0
70.0800 0
70.1900 0
70.3000 0
70.4100 0
70.5200 0
70.6300 0
70.7400 0
70.8500 0
70.9600 0
71.0700 0
71.1800 0
71.2900 0
71.4000 0
71.5100 0
71.6200 0
71.7300 0
71.8400 0
71.9500 0
72.0600 0
72.1700 0
72.2800 0
72.3900 0
72.5000 0
72.6100 0
72.7200 0
72.8300 0
72.9400 0
73.0500 0
73.1600 0
73.2700 0
73.3800 0
73.4900 0
73.6000 0
73.7100 0
73.8200 0
73.9300 0
74.0400 0
74.1500 0
74.2600 0
74.3700 0
74.4800 0
74.5900 0
74.7000 0
74.8100 0
74.9200 0
75.0300 0
75.1400 0
75.2500 0
75.3600 0
75.4700 0
75.5800 0
75.6900 0
75.8000 0
75.9100 0
76.0200 0
76.1300 0
76.2400 0
76.3500 0
76.4600 0
76.5700 0
76.6800 0
76.7900 0
76.9000 0
77.0100 0
77.1200 0
77.2300 0
77.3400 0
77.4500 0
77.5600 0
77.6700 0
77.7800 0
77.8900 0
78.0000 0
78.1100 0
78.2200 0
78.3300 0
78.4400 0
78.5500 0
78.6600 0
78.7700 0
78.8800 0
78.9900 0
79.1000 0
79.2100 0
79.3200 0
79.4300 0
79.5400 0
79.6500 0
79.7600 0
79.8700 0
79.9800 0
80.0900 0
80.2000 0
80.3100 0
80.4200 0
80.5300 0
80.6400 0
80.7500 0
80.8600 0
80.9700 0
81.0800 0
81.1900 0
81.3000 0
81.4100 0
81.5200 0
81.6300 0
81.7400 0
81.8500 0
81.9600 0
82.0700 0
82.1800 0
82.2900 0
82.4000 0
82.5100 0
82.6200 0
82.7300 0
82.8400 0
82.9500 0
83.0600 0
83.1700 0
83.2800 0
83.3900 0
83.5000 0
83.6100 0
83.7200 0
83.8300 0
83.9400 0
84.0500 0
84.1600 0
84.2700 0
84.3800 0
84.4900 0
84.6000 0
84.7100 0
84.8200 0
84.9300 0
85.0400 0
85.1500 0
85.2600 0
85.3700 0
85.4800 0
85.5900 0
85.7000 0
85.8100 0
85.9200 0
86.0300 0
86.1400 0
86.2500 0
86.3600 0
86.4700 0
86.5800 0
86.6900 0
86.8000 0
86.9100 0
87.0200 0
87.1300 0
87.2400 0
87.3500 0
87.4600 0
87.5700 0
87.6800 0
87.7900 0
87.9000 0
88.0100 0
88.1200 0
88.2300 0
88.3400 0
88.4500 0
88.5600 0
88.6700 0
88.7800 0
88.8900 0
89.0000 0
89.1100 0
89.2200 0
89.3300 0
89.4400 0
89.5500 0
89.6600 0
89.7700 0
89.8800 0
89.9900 0
90.1000 0
90.2100 0
90.3200 0
90.4300 0
90.5400 0
90.6500 0
90.7600 0
90.8700 0
90.9800 0
91.0900 0
91.2000 0
91.3100 0
91.4200 0
91.5300 0
91.6400 0
91.7500 0
91.8600 0
91.9700 0
92.0800 0
92.1900 0
92.3000 0
92.4100 0
92.5200 0
92.6300 0
92.7400 0
92.8500 0
92.9600 0
93.0700 0
93.1800 0
93.2900 0
93.4000 0
93.5100 0
93.6200 0
93.7300 0
93.8400 0
93.9500 0
94.0600 0
94.1700 0
94.2800 0
94.3900 0
94.5000 0
94.6100 0
94.7200 0
94.8300 0
94.9400 0
95.0500 0
95.1600 0
95.2700 0
95.3800 0
95.4900 0
95.6000 0
95.7100 0
95.8200 0
95.9300 0
96.0400 0
96.1500 0
96.2600 0
96.3700 0
96.4800 0
96.5900 0
96.7000 0
96.8100 0
96.9200 0
97.0300 0
97.1400 0
97.2500 0
97.3600 0
97.4700 0
97.5800 0
97.6900 0
97.8000 0
97.9100 0
98.0200 0
98.1300 0
98.2400 0
98.3500 0
98.4600 0
98.5700 0
98.6800 0
98.7900 0
98.9000 0
99.0100 0
99.1200 0
99.2300 0
99.3400 0
99.4500 0
99.5600 0
99.6700 0
99.7800 0
99.8900 0
100.0000 0
100.1100 0
100.2200 0
100.3300 0
100.4400 0
100.5500 0
100.6600 0
100.7700 0
100.8800 0
100.9900 0
101.1000 0
101.2100 0
101.3200 0
101.4300 0
101.5400 0
101.6500 0
101.7600 0
101.8700 0
101.9800 0
102.0900 0
102.2000 0
102.3100 0
102.4200 0
102.5300 0
102.6400 0
102.7500 0
102.8600 0
102.9700 0
103.0800 0
103.1900 0
103.3000 0
103.4100 0
103.5200 0
103.6300 0
103.7400 0
103.8500 0
103.9600 0
104.0700 0
104.1800 0
104.2900 0
104.4000 0
104.5100 0
104.6200 0
104.7300 0
104.8400 0
104.9500 0
105.0600 0
105.1700 0
105.2800 0
105.3900 0
105.5000 0
105.6100 0
105.7200 0
105.8300 0
105.9400 0
106.0500 0
106.1600 0
106.2700 0
106.3800 0
106.4900 0
106.6000 0
106.7100 0
106.8200 0
106.9300 0
107.0400 0
107.1500 0
107.2600 0
107.3700 0
107.4800 0
107.5900 0
107.7000 0
107.8100 0
107.9200 0
108.0300 0
108.1400 0
108.2500 0
108.3600 0
108.4700 0
108.5800 0
108.6900 0
108.8000 0
108.9100 0
109.0200 0
109.1300 0
109.2400 0
109.3500 0
109.4600 0
109.5700 0
109.6800 0
109.7900 0
109.9000 0
110.0100 0
110.1200 0
110.2300 0
110.3400 0
110.4500 0
110.5600 0
110.6700 0
110.7800 0
110.8900 0
111.0000 0
111.1100 0
111.2200 0
111.3300 0
111.4400 0
111.5500 0
111.6600 0
111.7700 0
111.8800 0
111.9900 0
112.1000 0
112.2100 0
112.3200 0
112.4300 0
112.5400 0
112.6500 0
112.7600 0
112.8700 0
112.9800 0
113.0900 0
113.2000 0
113.3100 0
113.4200 0
113.5300 0
113.6400 0
113.7500 0
113.8600 0
113.9700 0
114.0800 0
114.1900 0
114.3000 0
114.4100 0
114.5200 0
114.6300 0
114.7400 0
114.8500 0
114.9600 0
115.0700 0
115.1800 0
115.2900 0
115.4000 0
115.5100 0
115.6200 0
115.7300 0
115.8400 0
115.9500 0
116.0600 0
116.1700 0
116.2800 0
116.3900 0
116.5000 0
116.6100 0
116.7200 0
116.8300 0
116.9400 0
117.0500 0
117.1600 0
117.2700 0
117.3800 0
117.4900 0
117.6000 0
117.7100 0
117.8200 0
117.9300 0
118.0400 0
118.1500 0
118.2600 0
118.3700 0
118.4800 0
118.5900 0
118.7000 0
118.8100 0
118.9200 0
119.0300 0
119.1400 0
119.2500 0
119.3600 0
119.4700 0
119.5800 0
119.6900 0
119.8000 0
119.9100 0
120.0200 0
120.1300 0
120.2400 0
120.3500 0
120.4600 0
120.5700 0
120.6800 0
120.7900 0
120.9000 0
121.0100 0
121.1200 0
121.2300 0
121.3400 0
121.4500 0
121.5600 0
121.6700 0
121.7800 0
121.8900 0
122.0000 0
122.1100 0
122.2200 0
122.3300 0
122.4400 0
122.5500 0
122.6600 0
122.7700 0
122.8800 0
122.9900 0
123.1000 0
123.2100 0
123.3200 0
123.4300 0
123.5400 0
123.6500 0
123.7600 0
123.8700 0
123.9800 0
124.0900 0
124.2000 0
124.3100 0
124.4200 0
124.5300 0
124.6400 0
124.7500 0
124.8600 0
124.9700 0
125.0800 0
125.1900 0
125.3000 0
125.4100 0
125.5200 0
125.6300 0
125.7400 0
125.8500 0
125.9600 0
126.0700 0
126.1800 0
126.2900 0
126.4000 0
126.5100 0
126.6200 0
126.7300 0
126.8400 0
126.9500 0
127.0600 0
127.1700 0
127.2800 0
127.3900 0
127.5000 0
127.6100 0
127.7200 0
127.8300 0
127.9400 0
128.0500 0
128.1600 0
128.2700 0
128.3800 0
128.4900 0
128.6000 0
128.7100 0
128.8200 0
128.9300 0
129.0400 0
129.1500 0
129.2600 0
129.3700 0
129.4800 0
129.5900 0
129.7000 0
129.8100 0
129.9200 0
130.0300 0
130.1400 0
130.2500 0
130.3600 0
130.4700 0
130.5800 0
130.6900 0
130.8000 0
130.9100 0
131.0200 0
131.1300 0
131.2400 0
131.3500 0
131.4600 0
131.5700 0
131.6800 0
131.7900 0
131.9000 0
132.0100 0
132.1200 0
132.2300 0
132.3400 0
132.4500 0
132.5600 0
132.6700 0
132.7800 0
132.8900 0
133.0000 0
133.1100 0
133.2200 0
133.3300 0
133.4400 0
133.5500 0
133.6600 0
133.7700 0
133.8800 0
133.9900 0
134.1000 0
134.2100 0
134.3200 0
134.4300 0
134.5400 0
134.6500 0
134.7600 0
134.8700 0
134.9800 0
135.0900 0
135.2000 0
135.3100 0
135.4200 0
135.5300 0
135.6400 0
135.7500 0
135.8600 0
135.9700 0
136.0800 0
136.1900 0
136.3000 0
136.4100 0
136.5200 0
136.6300 0
136.7400 0
136.8500 0
136.9600 0
137.0700 0
137.1800 0
137.2900 0
137.4000 0
137.5100 0
137.6200 0
137.7300 0
137.8400 0
137.9500 0
138.0600 0
138.1700 0
138.2800 0
138.3900 0
138.5000 0
138.6100 0
138.7200 0
138.8300 0
138.9400 0
139.0500 0
139.1600 0
139.2700 0
139.3800 0
139.4900 0
139.6000 0
139.7100 0
139.8200 0
139.9300 0
140.0400 0
140.1500 0
140.2600 0
140.3700 0
140.4800 0
140.5900 0
140.7000 0
140.8100 0
140.9200 0
141.0300 0
141.1400 0
141.2500 0
141.3600 0
141.4700 0
141.5800 0
141.6900 0
141.8000 0
141.9100 0
142.0200 0
142.1300 0
142.2400 0
142.3500 0
142.4600 0
142.5700 0
142.6800 0
142.7900 0
142.9000 0
143.0100 0
143.1200 0
143.2300 0
143.3400 0
143.4500 0
143.5600 0
143.6700 0
143.7800 0
143.8900 0
144.0000 0
144.1100 0
144.2200 0
144.3300 0
144.4400 0
144.5500 0
144.6600 0
144.7700 0
144.8800 0
144.9900 0
145.1000 0
145.2100 0
145.3200 0
145.4300 0
145.5400 0
145.6500 0
145.7600 0
145.8700 0
145.9800 0
146.0900 0
146.2000 0
146.3100 0
146.4200 0
146.5300 0
146.6400 0
146.7500 0
146.8600 0
146.9700 0
147.0800 0
147.1900 0
147.3000 0
147.4100 0
147.5200 0
147.6300 0
147.7400 0
147.8500 0
147.9600 0
148.0700 0
148.1800 0
148.2900 0
148.4000 0
148.5100 0
148.6200 0
148.7300 0
148.8400 0
148.9500 0
149.0600 0
149.1700 0
149.2800 0
149.3900 0
149.5000 0
149.6100 0
149.7200 0
149.8300 0
149.9400 0
150.0500 0
150.1600 0
150.2700 0
150.3800 0
150.4900 0
150.6000 0
150.7100 0
150.8200 0
150.9300 0
151.0400 0
151.1500 0
151.2600 0
151.3700 0
151.4800 0
151.5900 0
151.7000 0
151.8100 0
151.9200 0
152.0300 0
152.1400 0
152.2500 0
152.3600 0
152.4700 0
152.5800 0
152.6900 0
152.8000 0
152.9100 0
153.0200 0
153.1300 0
153.2400 0
153.3500 0
153.4600 0
153.5700 0
153.6800 0
153.7900 0
153.9000 0
154.0100 0
154.1200 0
154.2300 0
154.3400 0
154.4500 0
154.5600 0
154.6700 0
154.7800 0
154.8900 0
155.0000 0
155.1100 0
155.2200 0
155.3300 0
155.4400 0
155.5500 0
155.6600 0
155.7700 0
155.8800 0
155.9900 0
156.1000 0
156.2100 0
156.3200 0
156.4300 0
156.5400 0
156.6500 0
156.7600 0
156.8700 0
156.9800 0
157.0900 0
157.2000 0
157.3100 0
157.4200 0
157.5300 0
157.6400 0
157.7500 0
157.8600 0
157.9700 0
158.0800 0
158.1900 0
158.3000 0
158.4100 0
158.5200 0
158.6300 0
158.7400 0
158.8500 0
158.9600 0
159.0700 0
159.1800 0
159.2900 0
159.4000 0
159.5100 0
159.6200 0
159.7300 0
159.8400 0
159.9500 0
160.0600 0
160.1700 0
160.2800 0
160.3900 0
160.5000 0
160.6100 0
160.7200 0
160.8300 0
160.9400 0
161.0500 0
161.1600 0
161.2700 0
161.3800 0
161.4900 0
161.6000 0
161.7100 0
161.8200 0
161.9300 0
162.0400 0
162.1500 0
162.2600 0
162.3700 0
162.4800 0
162.5900 0
162.7000 0
162.8100 0
162.9200 0
163.0300 0
163.1400 0
163.2500 0
163.3600 0
163.4700 0
163.5800 0
163.6900 0
163.8000 0
163.9100 0
164.0200 0
164.1300 0
164.2400 0
164.3500 0
164.4600 0
164.5700 0
164.6800 0
164.7900 0
164.9000 0
165.0000 0