File: course/data/exercises/X-ray_Diffraction/XRD_experimental.dat
    2.000       83
    2.030      111
    2.060      152
    2.090      169
    2.120      214
    2.150      215
    2.180      202
    2.210      217
    2.240      227
    2.270      223
    2.300      249
    2.330      257
    2.360      259
    2.390      257
    2.420      272
    2.450      289
    2.480      284
    2.510      287
    2.540      322
    2.570      320
    2.600      341
    2.630      392
    2.660      372
    2.690      406
    2.720      436
    2.750      435
    2.780      490
    2.810      515
    2.840      527
    2.870      590
    2.900      590
    2.930      650
    2.960      731
    2.990      794
    3.020      833
    3.050      928
    3.080     1148
    3.110     1375
    3.140     1226
    3.170      571
    3.200      284
    3.230      173
    3.260      145
    3.290      125
    3.320      130
    3.350      111
    3.380       97
    3.410      109
    3.440      101
    3.470      115
    3.500      109
    3.530       93
    3.560       90
    3.590      109
    3.620      109
    3.650      101
    3.680      118
    3.710      118
    3.740      132
    3.770      115
    3.800      122
    3.830      128
    3.860      141
    3.890      142
    3.920      149
    3.950      141
    3.980      169
    4.010      144
    4.040      158
    4.070      184
    4.100      193
    4.130      190
    4.160      190
    4.190      232
    4.220      238
    4.250      276
    4.280      264
    4.310      295
    4.340      342
    4.370      363
    4.400      443
    4.430      581
    4.460      509
    4.490      252
    4.520      184
    4.550      141
    4.580      138
    4.610      132
    4.640      110
    4.670      115
    4.700      102
    4.730      128
    4.760      112
    4.790      104
    4.820       98
    4.850       97
    4.880       99
    4.910       93
    4.940       88
    4.970       89
    5.000       80
    5.030       68
    5.060       74
    5.090       74
    5.120       87
    5.150       80
    5.180      100
    5.210       88
    5.240       88
    5.270       80
    5.300       82
    5.330       74
    5.360       80
    5.390       75
    5.420       76
    5.450       66
    5.480       83
    5.510       73
    5.540       68
    5.570       95
    5.600       74
    5.630       66
    5.660      102
    5.690       80
    5.720       89
    5.750      102
    5.780       97
    5.810       97
    5.840      100
    5.870      104
    5.900      100
    5.930      109
    5.960      119
    5.990      114
    6.020      130
    6.050      146
    6.080      147
    6.110      150
    6.140      180
    6.170      200
    6.200      204
    6.230      251
    6.260      279
    6.290      330
    6.320      240
    6.350      154
    6.380      139
    6.410      118
    6.440      102
    6.470      117
    6.500      109
    6.530      105
    6.560      106
    6.590      100
    6.620      113
    6.650      117
    6.680      131
    6.710      110
    6.740      141
    6.770      137
    6.800      155
    6.830      138
    6.860      163
    6.890      157
    6.920      160
    6.950      180
    6.980      193
    7.010      229
    7.040      213
    7.070      134
    7.100      103
    7.130       99
    7.160       81
    7.190       82
    7.220       84
    7.250       90
    7.280       93
    7.310       69
    7.340       94
    7.370       80
    7.400       78
    7.430       75
    7.460       89
    7.490       85
    7.520       87
    7.550       94
    7.580       75
    7.610       90
    7.640       90
    7.670       87
    7.700       87
    7.730       92
    7.760       94
    7.790       85
    7.820       94
    7.850       88
    7.880       84
    7.910       98
    7.940       93
    7.970       83
    8.000      105
    8.030       88
    8.060      103
    8.090      107
    8.120      106
    8.150      122
    8.180      102
    8.210       98
    8.240       88
    8.270       84
    8.300       89
    8.330       93
    8.360       90
    8.390       90
    8.420       78
    8.450       88
    8.480       90
    8.510      102
    8.540       91
    8.570      102
    8.600       80
    8.630       87
    8.660       89
    8.690       99
    8.720      119
    8.750      100
    8.780      112
    8.810      112
    8.840      117
    8.870      116
    8.900      133
    8.930      119
    8.960      106
    8.990      110
    9.020      108
    9.050      115
    9.080      127
    9.110      127
    9.140      125
    9.170      142
    9.200      132
    9.230      160
    9.260      150
    9.290      169
    9.320      165
    9.350      140
    9.380      141
    9.410      135
    9.440      151
    9.470      124
    9.500      118
    9.530      108
    9.560      124
    9.590      113
    9.620      102
    9.650       98
    9.680      114
    9.710      108
    9.740      104
    9.770      113
    9.800      104
    9.830      111
    9.860      109
    9.890      100
    9.920      107
    9.950      114
    9.980      119
   10.010      111
   10.040      110
   10.070      106
   10.100      126
   10.130      134
   10.160      126
   10.190      137
   10.220      121
   10.250      141
   10.280      149
   10.310      182
   10.340      158
   10.370      139
   10.400      143
   10.430      130
   10.460      113
   10.490      120
   10.520      101
   10.550      113
   10.580      116
   10.610      116
   10.640      103
   10.670      124
   10.700      102
   10.730      112
   10.760      112
   10.790      117
   10.820      104
   10.850      115
   10.880      113
   10.910      109
   10.940      120
   10.970      123
   11.000      115
   11.030      123
   11.060      125
   11.090      105
   11.120      130
   11.150      147
   11.180      131
   11.210      145
   11.240      135
   11.270      134
   11.300      134
   11.330      115
   11.360      121
   11.390      127
   11.420      120
   11.450      107
   11.480      135
   11.510       98
   11.540      119
   11.570      127
   11.600      108
   11.630      122
   11.660      142
   11.690      136
   11.720      136
   11.750      134
   11.780      127
   11.810      136
   11.840      129
   11.870      118
   11.900      143
   11.930      135
   11.960      149
   11.990      153
   12.020      167
   12.050      206
   12.080      190
   12.110      176
   12.140      159
   12.170      115
   12.200      133
   12.230      135
   12.260      130
   12.290      114
   12.320      104
   12.350      105
   12.380      106
   12.410      108
   12.440       97
   12.470      108
   12.500      109
   12.530      103
   12.560      113
   12.590       96
   12.620      107
   12.650      115
   12.680      110
   12.710      114
   12.740      110
   12.770      122
   12.800      121
   12.830      131
   12.860      126
   12.890      137
   12.920      124
   12.950      114
   12.980      129
   13.010      120
   13.040      109
   13.070      107
   13.100      117
   13.130      106
   13.160      117
   13.190      109
   13.220       99
   13.250      110
   13.280       98
   13.310      129
   13.340      103
   13.370      125
   13.400      118
   13.430      114
   13.460      112
   13.490      116
   13.520      121
   13.550      109
   13.580      130
   13.610      145
   13.640      183
   13.670      146
   13.700      139
   13.730       99
   13.760      117
   13.790      106
   13.820      106
   13.850      118
   13.880      103
   13.910      100
   13.940      105
   13.970      109
   14.000      118
   14.030      116
   14.060       98
   14.090      110
   14.120      107
   14.150      100
   14.180      103
   14.210      118
   14.240      127
   14.270      140
   14.300      149
   14.330      161
   14.360      145
   14.390      132
   14.420      117
   14.450      100
   14.480      112
   14.510      108
   14.540       93
   14.570      102
   14.600       97
   14.630       87
   14.660       94
   14.690       94
   14.720       93
   14.750       83
   14.780       96
   14.810      103
   14.840       88
   14.870       88
   14.900       94
   14.930      105
   14.960       97
   14.990       92
   15.020      112
   15.050       89
   15.080       94
   15.110      110
   15.140       84
   15.170       85
   15.200       97
   15.230       96
   15.260       87
   15.290       78
   15.320       96
   15.350       88
   15.380       84
   15.410      105
   15.440      103
   15.470       86
   15.500      100
   15.530      111
   15.560      116
   15.590      121
   15.620      118
   15.650      134
   15.680      145
   15.710      128
   15.740      127
   15.770      123
   15.800      116
   15.830       98
   15.860      103
   15.890       97
   15.920       95
   15.950       96
   15.980      104
   16.010       94
   16.040       98
   16.070      113
   16.100       98
   16.130       89
   16.160       86
   16.190       94
   16.220      103
   16.250      108
   16.280      105
   16.310      103
   16.340      104
   16.370      110
   16.400       97
   16.430       98
   16.460       94
   16.490       77
   16.520       73
   16.550       81
   16.580       85
   16.610       76
   16.640       80
   16.670       80
   16.700       75
   16.730       89
   16.760       81
   16.790       96
   16.820       77
   16.850       79
   16.880       91
   16.910      102
   16.940      101
   16.970       90
   17.000       84
   17.030       78
   17.060       74
   17.090       54
   17.120       69
   17.150       72
   17.180       72
   17.210       73
   17.240       88
   17.270       81
   17.300       69
   17.330       76
   17.360       73
   17.390       72
   17.420       75
   17.450       72
   17.480       78
   17.510       89
   17.540       69
   17.570       84
   17.600       67
   17.630       66
   17.660       82
   17.690       74
   17.720       73
   17.750       84
   17.780       81
   17.810       79
   17.840       78
   17.870       75
   17.900       87
   17.930       89
   17.960       91
   17.990       99
   18.020       87
   18.050       97
   18.080       92
   18.110       92
   18.140       89
   18.170       80
   18.200       86
   18.230       70
   18.260       76
   18.290       81
   18.320       92
   18.350       71
   18.380       83
   18.410       75
   18.440       81
   18.470       77
   18.500       71
   18.530       75
   18.560       93
   18.590       86
   18.620       88
   18.650       81
   18.680       91
   18.710       93
   18.740       74
   18.770       87
   18.800       86
   18.830       78
   18.860       87
   18.890       99
   18.920      104
   18.950      116
   18.980       99
   19.010       69
   19.040       73
   19.070       99
   19.100       97
   19.130      102
   19.160      124
   19.190      119
   19.220      122
   19.250      128
   19.280       95
   19.310       92
   19.340       95
   19.370      109
   19.400      103
   19.430      115
   19.460      104
   19.490      112
   19.520      106
   19.550       96
   19.580      102
   19.610       94
   19.640       91
   19.670       85
   19.700       81
   19.730       65
   19.760       90
   19.790       83
   19.820       73
   19.850       86
   19.880       75
   19.910       79
   19.940       91
   19.970      100
   20.000       99
   20.030       86
   20.060       89
   20.090       90
   20.120       95
   20.150       82
   20.180       97
   20.210       99
   20.240      116
   20.270       89
   20.300       77
   20.330       73
   20.360       73
   20.390       80
   20.420       83
   20.450       76
   20.480       74
   20.510       75
   20.540       78
   20.570       72
   20.600       75
   20.630       89
   20.660       78
   20.690       77
   20.720       75
   20.750       74
   20.780       69
   20.810       78
   20.840       74
   20.870       71
   20.900       85
   20.930       67
   20.960       75
   20.990       79
   21.020       82
   21.050       75
   21.080       69
   21.110       61
   21.140       65
   21.170       70
   21.200       59
   21.230       68
   21.260       64
   21.290       74
   21.320       75
   21.350       65
   21.380       62
   21.410       69
   21.440       69
   21.470       62
   21.500       68
   21.530       69
   21.560       68
   21.590       78
   21.620       74
   21.650       74
   21.680       74
   21.710       67
   21.740       66
   21.770       56
   21.800       60
   21.830       78
   21.860       63
   21.890       61
   21.920       72
   21.950       71
   21.980       66
   22.010       64
   22.040       75
   22.070       63
   22.100       74
   22.130       66
   22.160       82
   22.190       79
   22.220       70
   22.250       71
   22.280       81
   22.310       88
   22.340       91
   22.370       87
   22.400       98
   22.430       94
   22.460       79
   22.490       82
   22.520       82
   22.550       78
   22.580       80
   22.610       77
   22.640       87
   22.670       87
   22.700       64
   22.730       78
   22.760       79
   22.790       80
   22.820       73
   22.850       74
   22.880       71
   22.910       62
   22.940       65
   22.970       65
   23.000       77
   23.030       63
   23.060       74
   23.090       62
   23.120       78
   23.150       80
   23.180       66
   23.210       73
   23.240       65
   23.270       73
   23.300       79
   23.330       84
   23.360       64
   23.390       66
   23.420       72
   23.450       67
   23.480       61
   23.510       63
   23.540       71
   23.570       71
   23.600       71
   23.630       72
   23.660       72
   23.690       58
   23.720       65
   23.750       60
   23.780       70
   23.810       60
   23.840       70
   23.870       78
   23.900       69
   23.930       76
   23.960       69
   23.990       77
   24.020       59
   24.050       71
   24.080       77
   24.110       58
   24.140       70
   24.170       67
   24.200       65
   24.230       73
   24.260       75
   24.290       70
   24.320       62
   24.350       72
   24.380       77
   24.410       63
   24.440       67
   24.470       66
   24.500       71
   24.530       67
   24.560       82
   24.590       61
   24.620       79
   24.650       74
   24.680       92
   24.710      100
   24.740       86
   24.770       96
   24.800       81
   24.830       78
   24.860       91
   24.890       81
   24.920       85
   24.950       82
   24.980       82
   25.010       68
   25.040       76
   25.070       77
   25.100       77
   25.130       67
   25.160       74
   25.190       69
   25.220       72
   25.250       67
   25.280       65
   25.310       65
   25.340       77
   25.370       55
   25.400       70
   25.430       67
   25.460       78
   25.490       87
   25.520       91
   25.550      107
   25.580       89
   25.610       85
   25.640       82
   25.670       68
   25.700       76
   25.730       77
   25.760       72
   25.790       72
   25.820       78
   25.850       79
   25.880       82
   25.910       69
   25.940       82
   25.970       70
   26.000       79
   26.030       73
   26.060       65
   26.090       68
   26.120       73
   26.150       75
   26.180       74
   26.210       76
   26.240       74
   26.270       78
   26.300       75
   26.330       79
   26.360       76
   26.390       64
   26.420       78
   26.450       71
   26.480       64
   26.510       84
   26.540       68
   26.570       64
   26.600       63
   26.630       68
   26.660       75
   26.690       68
   26.720       71
   26.750       85
   26.780       78
   26.810       65
   26.840       72
   26.870       81
   26.900       77
   26.930       82
   26.960       67
   26.990       81
   27.020       73
   27.050       79
   27.080       75
   27.110       80
   27.140       83
   27.170       75
   27.200       83
   27.230       82
   27.260       75
   27.290       91
   27.320       84
   27.350       80
   27.380       93
   27.410       98
   27.440       94
   27.470       98
   27.500       99
   27.530      101
   27.560       74
   27.590       62
   27.620       82
   27.650       66
   27.680       81
   27.710       80
   27.740       82
   27.770       87
   27.800       80
   27.830       73
   27.860       58
   27.890       81
   27.920       74
   27.950       64
   27.980       75
   28.010       67
   28.040       75
   28.070       76
   28.100       67
   28.130       72
   28.160       79
   28.190       88
   28.220       84
   28.250       73
   28.280       85
   28.310       71
   28.340       73
   28.370       66
   28.400       64
   28.430       76
   28.460       79
   28.490       84
   28.520       72
   28.550       81
   28.580       87
   28.610       84
   28.640       80
   28.670       65
   28.700       71
   28.730       74
   28.760       81
   28.790       75
   28.820       77
   28.850       76
   28.880       73
   28.910       73
   28.940       70
   28.970       58
   29.000       60
   29.030       79
   29.060       75
   29.090       74
   29.120       70
   29.150       62
   29.180       74
   29.210       81
   29.240       78
   29.270       84
   29.300       90
   29.330       87
   29.360       83
   29.390       82
   29.420       75
   29.450       92
   29.480       65
   29.510       72
   29.540       72
   29.570       82
   29.600       78
   29.630       80
   29.660       72
   29.690       80
   29.720       63
   29.750       71
   29.780       70
   29.810       76
   29.840       80
   29.870       70
   29.900       70
   29.930       74
   29.960       71
   29.990       64
   30.020       72
   30.050       63
   30.080       70
   30.110       70
   30.140       69
   30.170       61
   30.200       58
   30.230       79
   30.260       81
   30.290       81
   30.320       70
   30.350       81
   30.380       85
   30.410       65
   30.440       74
   30.470       69
   30.500       60
   30.530       67
   30.560       67
   30.590       71
   30.620       68
   30.650       55
   30.680       64
   30.710       71
   30.740       59
   30.770       66
   30.800       67
   30.830       55
   30.860       54
   30.890       77
   30.920       70
   30.950       62
   30.980       83
   31.010       63
   31.040       71
   31.070       56
   31.100       64
   31.130       65
   31.160       63
   31.190       64
   31.220       64
   31.250       86
   31.280       51
   31.310       68
   31.340       63
   31.370       64
   31.400       68
   31.430       70
   31.460       61
   31.490       75
   31.520       77
   31.550       73
   31.580       63
   31.610       61
   31.640       59
   31.670       69
   31.700       72
   31.730       71
   31.760       71
   31.790       67
   31.820       66
   31.850       69
   31.880       70
   31.910       66
   31.940       57
   31.970       46
   32.000       59
   32.030       70
   32.060       67
   32.090       77
   32.120       68
   32.150       72
   32.180       67
   32.210       81
   32.240       64
   32.270       59
   32.300       51
   32.330       79
   32.360       61
   32.390       62
   32.420       61
   32.450       70
   32.480       63
   32.510       55
   32.540       67
   32.570       71
   32.600       58
   32.630       75
   32.660       58
   32.690       62
   32.720       71
   32.750       66
   32.780       67
   32.810       71
   32.840       59
   32.870       57
   32.900       76
   32.930       56
   32.960       66
   32.990       69
   33.020       56
   33.050       65
   33.080       57
   33.110       61
   33.140       61
   33.170       61
   33.200       73
   33.230       64
   33.260       70
   33.290       59
   33.320       60
   33.350       66
   33.380       63
   33.410       63
   33.440       56
   33.470       66
   33.500       75
   33.530       70
   33.560       61
   33.590       65
   33.620       45
   33.650       62
   33.680       59
   33.710       69
   33.740       57
   33.770       58
   33.800       54
   33.830       67
   33.860       59
   33.890       65
   33.920       56
   33.950       62
   33.980       59
   34.010       60
   34.040       50
   34.070       58
   34.100       60
   34.130       69
   34.160       62
   34.190       51
   34.220       52
   34.250       59
   34.280       72
   34.310       69
   34.340       58
   34.370       58
   34.400       51
   34.430       69
   34.460       54
   34.490       66
   34.520       65
   34.550       63
   34.580       61
   34.610       44
   34.640       57
   34.670       61
   34.700       50
   34.730       56
   34.760       56
   34.790       71
   34.820       66
   34.850       65
   34.880       60
   34.910       66
   34.940       55
   34.970       64
   35.000       66
   35.030       63
   35.060       53
   35.090       53
   35.120       58
   35.150       50
   35.180       57
   35.210       54
   35.240       59
   35.270       61
   35.300       62
   35.330       69
   35.360       53
   35.390       56
   35.420       59
   35.450       65
   35.480       54
   35.510       62
   35.540       56
   35.570       64
   35.600       55
   35.630       57
   35.660       50
   35.690       42
   35.720       58
   35.750       56
   35.780       57
   35.810       52
   35.840       41
   35.870       59
   35.900       61
   35.930       52
   35.960       65
   35.990       58
   36.020       57
   36.050       64
   36.080       56
   36.110       56
   36.140       53
   36.170       55
   36.200       53
   36.230       46
   36.260       55
   36.290       43
   36.320       57
   36.350       62
   36.380       64
   36.410       63
   36.440       54
   36.470       57
   36.500       49
   36.530       69
   36.560       44
   36.590       58
   36.620       54
   36.650       50
   36.680       56
   36.710       50
   36.740       58
   36.770       62
   36.800       52
   36.830       58
   36.860       57
   36.890       60
   36.920       51
   36.950       50
   36.980       45
   37.010       53
   37.040       51
   37.070       47
   37.100       46
   37.130       50
   37.160       49
   37.190       61
   37.220       53
   37.250       57
   37.280       54
   37.310       59
   37.340       47
   37.370       47
   37.400       57
   37.430       61
   37.460       46
   37.490       51
   37.520       58
   37.550       59
   37.580       53
   37.610       53
   37.640       51
   37.670       51
   37.700       55
   37.730       58
   37.760       52
   37.790       59
   37.820       55
   37.850       47
   37.880       44
   37.910       56
   37.940       55
   37.970       48
   38.000       50
   38.030       51
   38.060       63
   38.090       58
   38.120       45
   38.150       52
   38.180       48
   38.210       54
   38.240       57
   38.270       48
   38.300       51
   38.330       46
   38.360       49
   38.390       58
   38.420       56
   38.450       55
   38.480       55
   38.510       61
   38.540       48
   38.570       56
   38.600       62
   38.630       52
   38.660       58
   38.690       60
   38.720       55
   38.750       65
   38.780       65
   38.810       61
   38.840       51
   38.870       75
   38.900       56
   38.930       68
   38.960       58
   38.990       54
   39.020       63
   39.050       59
   39.080       47
   39.110       65
   39.140       52
   39.170       60
   39.200       52
   39.230       57
   39.260       58
   39.290       51
   39.320       61
   39.350       57
   39.380       44
   39.410       50
   39.440       57
   39.470       52
   39.500       57
   39.530       53
   39.560       54
   39.590       52
   39.620       50
   39.650       50
   39.680       49
   39.710       44
   39.740       51
   39.770       50
   39.800       64
   39.830       56
   39.860       53
   39.890       47
   39.920       51
   39.950       50
   39.980       47
   40.010       49
   40.040       57
   40.070       50
   40.100       47
   40.130       63
   40.160       64
   40.190       53
   40.220       49
   40.250       56
   40.280       54
   40.310       43
   40.340       56
   40.370       50
   40.400       61
   40.430       54
   40.460       62
   40.490       66
   40.520       51
   40.550       54
   40.580       51
   40.610       60
   40.640       54
   40.670       56
   40.700       51
   40.730       67
   40.760       37
   40.790       45
   40.820       55
   40.850       69
   40.880       53
   40.910       61
   40.940       52
   40.970       55
   41.000       46
   41.030       54
   41.060       57
   41.090       55
   41.120       48
   41.150       48
   41.180       49
   41.210       51
   41.240       55
   41.270       51
   41.300       40
   41.330       51
   41.360       45
   41.390       49
   41.420       53
   41.450       54
   41.480       45
   41.510       49
   41.540       54
   41.570       49
   41.600       43
   41.630       49
   41.660       53
   41.690       54
   41.720       46
   41.750       57
   41.780       49
   41.810       49
   41.840       59
   41.870       42
   41.885       55